{
"takuto" : {
    "data" : [
	{
		"rt": 5769.974999999249,
		"responses": "{\"game\":6,\"ramen\":6,\"stomach\":6,\"JiuJitsu\":6}",
		"question_order": "[0,1,2,3]",
		"trial_type": "survey-likert",
		"trial_index": 0,
		"time_elapsed": 5772,
		"internal_node_id": "0.0-0.0-0.0"
	},
	{
		"rt": 7308.964999998352,
		"responses": "{\"ReadPaper\":6,\"pray\":6,\"MMA\":6,\"WritePaper\":6}",
		"question_order": "[0,1,2,3]",
		"trial_type": "survey-likert",
		"trial_index": 1,
		"time_elapsed": 13084,
		"internal_node_id": "0.0-0.0-1.0"
	},
	{
		"rt": 4439.2100000004575,
		"responses": "{\"Wining11\":6,\"zi\":6}",
		"question_order": "[0,1]",
		"trial_type": "survey-likert",
		"trial_index": 2,
		"time_elapsed": 17525,
		"internal_node_id": "0.0-0.0-2.0"
	}
]
},
"yoshida" : {
"data" : [
	{
		"rt": 5769.974999999249,
		"responses": "{\"game\":0,\"ramen\":0,\"stomach\":0,\"JiuJitsu\":0}",
		"question_order": "[0,1,2,3]",
		"trial_type": "survey-likert",
		"trial_index": 0,
		"time_elapsed": 5772,
		"internal_node_id": "0.0-0.0-0.0"
	},
	{
		"rt": 7308.964999998352,
		"responses": "{\"ReadPaper\":0,\"pray\":0,\"MMA\":0,\"WritePaper\":0}",
		"question_order": "[0,1,2,3]",
		"trial_type": "survey-likert",
		"trial_index": 1,
		"time_elapsed": 13084,
		"internal_node_id": "0.0-0.0-1.0"
	},
	{
		"rt": 4439.2100000004575,
		"responses": "{\"Wining11\":0,\"zi\":0}",
		"question_order": "[0,1]",
		"trial_type": "survey-likert",
		"trial_index": 2,
		"time_elapsed": 17525,
		"internal_node_id": "0.0-0.0-2.0"
	}
]
}
}